#	energy	(eV)	muonrho	dmuonrho				
8004.870000	0.022551	0.000224	
8044.590000	0.022662	0.000239	
8084.780000	0.021609	0.000389	
8124.420000	0.021312	0.000087	
8164.810000	0.017058	0.000119	
8204.630000	0.018030	0.000104	
8244.860000	0.016151	0.000131	
8284.670000	0.017246	0.000186	
8313.840000	0.018049	0.000095	
8314.850000	0.018024	0.000206	
8315.800000	0.018961	0.000156	
8316.870000	0.018517	0.000209	
8317.700000	0.018775	0.000143	
8317.760000	0.018955	0.000102	
8318.650000	0.019818	0.000085	
8319.660000	0.020537	0.000109	
8320.610000	0.020886	0.000238	
8321.560000	0.020921	0.000086	
8322.620000	0.020594	0.000116	
8323.630000	0.022078	0.000187	
8324.110000	0.021992	0.000154	
8324.530000	0.022669	0.000136	
8325.000000	0.023670	0.000105	
8325.540000	0.025365	0.000092	
8326.010000	0.026589	0.000095	
8326.550000	0.029389	0.000086	
8327.020000	0.031504	0.000103	
8327.500000	0.033999	0.000114	
8328.030000	0.037453	0.000094	
8328.630000	0.041590	0.000154	
8329.100000	0.046654	0.000142	
8329.580000	0.053313	0.000330	
8329.640000	0.053335	0.000183	
8330.120000	0.058718	0.000067	
8330.530000	0.065779	0.000127	
8330.590000	0.065780	0.000118	
8331.070000	0.072255	0.000078	
8331.600000	0.080157	0.000086	
8332.140000	0.088155	0.000062	
8332.610000	0.098002	0.000276	
8333.150000	0.106348	0.000084	
8333.690000	0.115174	0.000103	
8334.280000	0.123113	0.000068	
8334.760000	0.129839	0.000122	
8335.240000	0.133966	0.000100	
8335.710000	0.137244	0.000070	
8336.190000	0.138310	0.000182	
8336.730000	0.139129	0.000072	
8337.200000	0.138825	0.000085	
8337.800000	0.139495	0.000214	
8338.280000	0.138120	0.000130	
8338.690000	0.136328	0.000132	
8338.750000	0.136359	0.000131	
8339.230000	0.135121	0.000068	
8339.290000	0.135096	0.000097	
8339.830000	0.133348	0.000458	
8340.300000	0.132937	0.000327	
8340.780000	0.129701	0.000139	
8340.840000	0.130161	0.000143	
8341.320000	0.128106	0.000099	
8341.790000	0.125824	0.000179	
8342.270000	0.123192	0.000116	
8342.690000	0.121784	0.000130	
8342.750000	0.121882	0.000085	
8343.230000	0.119560	0.000100	
8343.700000	0.116635	0.000085	
8344.240000	0.115788	0.000071	
8344.660000	0.113206	0.000090	
8345.140000	0.111418	0.000116	
8345.680000	0.109406	0.000352	
8346.210000	0.109302	0.000172	
8346.630000	0.106676	0.000239	
8347.110000	0.105107	0.000085	
8347.590000	0.104562	0.000225	
8348.070000	0.103426	0.000121	
8348.540000	0.101215	0.000095	
8348.960000	0.100044	0.000282	
8349.440000	0.100016	0.000092	
8350.040000	0.098093	0.000213	
8350.460000	0.096744	0.000131	
8350.940000	0.094888	0.000105	
8351.410000	0.093506	0.000125	
8352.010000	0.092288	0.000155	
8352.490000	0.092899	0.000101	
8352.970000	0.091224	0.000078	
8353.450000	0.089774	0.000128	
8353.870000	0.088646	0.000223	
8354.350000	0.088096	0.000137	
8354.880000	0.086920	0.000160	
8355.360000	0.086636	0.000189	
8355.840000	0.084746	0.000218	
8356.380000	0.085422	0.000286	
8356.860000	0.083722	0.000160	
8357.400000	0.082443	0.000129	
8357.940000	0.081864	0.000171	
8358.480000	0.081734	0.000141	
8358.960000	0.081218	0.000116	
8359.500000	0.080203	0.000119	
8359.980000	0.079741	0.000163	
8360.460000	0.079548	0.000347	
8360.940000	0.080896	0.000076	
8361.540000	0.079823	0.000316	
8362.080000	0.080220	0.000304	
8362.560000	0.079535	0.000262	
8363.100000	0.079962	0.000105	
8363.760000	0.081218	0.000441	
8365.740000	0.083788	0.000181	
8367.780000	0.088041	0.000086	
8369.880000	0.092305	0.000074	
8371.800000	0.097086	0.000080	
8373.790000	0.098871	0.000099	
8375.770000	0.100450	0.000157	
8377.700000	0.101316	0.000292	
8379.630000	0.103227	0.000074	
8381.550000	0.103756	0.000252	
8383.540000	0.105201	0.000241	
8385.530000	0.105002	0.000094	
8387.520000	0.103740	0.000213	
8389.580000	0.104629	0.000096	
8391.570000	0.102123	0.000085	
8393.750000	0.101058	0.000170	
8395.800000	0.099430	0.000212	
8397.740000	0.097403	0.000103	
8397.800000	0.097417	0.000166	
8399.790000	0.097445	0.000094	
8401.790000	0.096239	0.000068	
8403.730000	0.094536	0.000244	
8405.730000	0.094465	0.000069	
8407.670000	0.094878	0.000066	
8409.490000	0.094966	0.000115	
8411.490000	0.094929	0.000076	
8413.500000	0.093929	0.000116	
8415.380000	0.092779	0.000071	
8417.390000	0.092292	0.000073	
8419.520000	0.090835	0.000088	
8421.460000	0.090568	0.000134	
8423.530000	0.090973	0.000093	
8425.660000	0.091598	0.000150	
8427.610000	0.091039	0.000220	
8429.690000	0.091449	0.000112	
8431.760000	0.091691	0.000115	
8433.590000	0.091865	0.000162	
8435.540000	0.092094	0.000100	
8435.610000	0.093039	0.000437	
8437.620000	0.092442	0.000176	
8439.450000	0.092439	0.000169	
8441.350000	0.093110	0.000182	
8443.430000	0.093130	0.000094	
8445.330000	0.093274	0.000186	
8447.350000	0.093354	0.000159	
8449.490000	0.093454	0.000085	
8451.450000	0.093885	0.000083	
8453.540000	0.093715	0.000202	
8455.620000	0.093511	0.000181	
8457.590000	0.093296	0.000085	
8459.670000	0.093258	0.000054	
8461.700000	0.093657	0.000072	
8463.670000	0.093592	0.000107	
8465.640000	0.093989	0.000072	
8467.610000	0.094466	0.000169	
8467.670000	0.094273	0.000102	
8469.510000	0.094553	0.000084	
8471.420000	0.094548	0.000228	
8473.460000	0.094989	0.000183	
8475.430000	0.094766	0.000189	
8477.340000	0.094795	0.000131	
8479.380000	0.094712	0.000082	
8481.420000	0.094330	0.000133	
8483.450000	0.094373	0.000086	
8485.550000	0.093729	0.000071	
8487.660000	0.093365	0.000137	
8489.700000	0.093026	0.000172	
8491.740000	0.092276	0.000079	
8493.720000	0.091902	0.000066	
8495.640000	0.091357	0.000126	
8497.630000	0.091407	0.000469	
8499.610000	0.091419	0.000084	
8501.410000	0.090495	0.000078	
8503.640000	0.089730	0.000145	
8513.650000	0.087912	0.000173	
8524.120000	0.088461	0.000216	
8533.800000	0.088576	0.000153	
8543.760000	0.088294	0.000102	
8554.050000	0.088886	0.000099	
8563.740000	0.087853	0.000202	
8573.770000	0.087524	0.000169	
8584.070000	0.086261	0.000201	
8593.960000	0.085316	0.000218	
8600.000382	0.084309	0.004114	
8610.000610	0.083697	0.002452	
8620.000839	0.083085	0.000790	
8630.000114	0.082529	0.000121	
8640.000343	0.082012	0.000172	
8650.000572	0.081793	0.000158	
8660.000801	0.081778	0.000100	
8670.000076	0.081268	0.000092	
8680.000305	0.080453	0.000116	
8690.000534	0.080262	0.000148	
8700.000763	0.080510	0.000186	
8710.000038	0.079810	0.000214	
8720.000267	0.078525	0.000235	
8730.000496	0.077762	0.000196	
8740.000725	0.077328	0.000118	
8750.000000	0.076767	0.000113	
8760.000229	0.076126	0.000153	
8770.000458	0.075869	0.000219	
8780.000687	0.075831	0.000299	
8789.999962	0.075172	0.000287	
8800.000191	0.074094	0.000214	
8810.000420	0.073767	0.000157	
8820.000649	0.073908	0.000110	
8829.999924	0.073578	0.000129	
8840.000153	0.072931	0.000191	
8850.000382	0.072285	0.000253	
8860.000610	0.071839	0.000239	
8870.000839	0.071543	0.000168	
8880.000114	0.071248	0.000097	
8890.000343	0.070944	0.000070	
8900.000572	0.070636	0.000073	
8910.000801	0.070327	0.000077	
8920.000076	0.069761	0.000074	
8930.000305	0.069005	0.000067	
8940.000534	0.068249	0.000060	
8950.000763	0.068060	0.000126	
8960.000038	0.067724	0.000118	
8970.000267	0.067388	0.000110	
8980.000496	0.067042	0.000110	
8990.000725	0.066690	0.000115	
9000.000000	0.066337	0.000120	
9010.000229	0.065959	0.000115	
9020.000458	0.065561	0.000105	
9030.000687	0.065164	0.000094	
9039.999962	0.064767	0.000083	
9050.000191	0.064208	0.000231	
9060.000420	0.063532	0.000494	
9070.000649	0.062855	0.000757	
9079.999924	0.062179	0.001019	
9090.000153	0.061730	0.000984	
9100.000382	0.061461	0.000712	
9110.000610	0.061191	0.000439	
9120.000839	0.060921	0.000167	
9130.000114	0.060590	0.000053	
9140.000343	0.060211	0.000063	
9150.000572	0.059832	0.000073	
9160.000801	0.059453	0.000083	
9170.000076	0.059173	0.000080	
9180.000305	0.058977	0.000066	
9190.000534	0.058781	0.000052	
9200.000763	0.058585	0.000038	
9210.000038	0.058212	0.000079	
9220.000267	0.057692	0.000165	
9230.000496	0.057171	0.000250	
9240.000725	0.056651	0.000336	
9250.000000	0.056346	0.000329	
9260.000229	0.056215	0.000246	
9270.000458	0.056084	0.000163	
9280.000687	0.055953	0.000080	
9289.999962	0.055682	0.000067	
9300.000191	0.055308	0.000106	
9310.000420	0.054933	0.000145	
9320.000649	0.054559	0.000185	
9329.999924	0.054321	0.000176	
9340.000153	0.054183	0.000133	
9350.000382	0.054045	0.000089	
9360.000610	0.053907	0.000046	
9370.000839	0.053645	0.000055	
9380.000114	0.053296	0.000100	
9390.000343	0.052947	0.000145	
9400.000572	0.052599	0.000191	
9410.000801	0.052383	0.000192	
9420.000076	0.052271	0.000160	
9430.000305	0.052159	0.000128	
9440.000534	0.052047	0.000096	
9450.000763	0.051935	0.000063	
9460.000038	0.051749	0.000063	
9470.000267	0.051502	0.000089	
9480.000496	0.051254	0.000114	
9490.000725	0.051006	0.000140	
9500.000000	0.050758	0.000166